File: python_workshop_TGA.csv
Time,Temperature,Weight,Balance_Flow,Sample_Flow
0.02500000,20.12025,7.891631,39.98718,59.99124
0.2916666,20.21831,7.888284,40.00117,59.99802
0.5583334,20.58131,7.884171,39.99716,60.00691
0.8250000,21.09196,7.879288,40.00478,60.00688
1.091667,21.64468,7.873993,39.99506,60.00131
1.358334,22.18672,7.867922,39.99146,59.99629
1.625000,22.71661,7.861460,39.98972,60.01075
1.891666,23.23634,7.855294,39.99359,60.00761
2.158333,23.74995,7.848624,39.99016,60.00066
2.425000,24.26840,7.842431,39.99727,60.00476
2.691666,24.78872,7.835556,39.99872,59.99944
2.958333,25.31140,7.828687,39.99760,60.01195
3.225000,25.83624,7.821924,39.99292,60.00660
3.491666,26.36291,7.814355,39.99930,60.00130
3.758334,26.88625,7.807103,40.00017,59.99626
4.025000,27.41865,7.798690,40.00608,60.00586
4.291666,27.94550,7.791181,40.00286,59.99740
4.558334,28.47300,7.782708,39.99741,60.00666
4.825000,29.00785,7.774247,39.99951,59.99272
5.091667,29.53840,7.766132,40.01175,59.99955
5.358332,30.07194,7.757447,39.99938,60.00046
5.625000,30.60300,7.748126,40.01118,59.99734
5.891668,31.13545,7.739401,40.01216,60.00828
6.158332,31.66791,7.730145,40.00628,59.99195
6.425000,32.20096,7.721153,40.00175,59.99898
6.691666,32.73305,7.711689,40.01498,59.99670
6.958334,33.26626,7.702556,40.00359,60.00168
7.225000,33.80187,7.693118,39.99352,59.99407
7.491668,34.33164,7.684692,39.98766,59.99776
7.758332,34.86618,7.676144,39.99544,60.00302
8.025000,35.40026,7.667650,39.99353,60.00274
8.291668,35.93827,7.660156,39.99216,59.99868
8.558334,36.47110,7.652210,39.99722,60.00757
8.825000,37.00140,7.645398,39.99514,59.99549
9.091666,37.53230,7.638568,39.99206,59.99578
9.358334,38.06890,7.631922,39.99588,60.00309
9.625000,38.59858,7.626400,39.99364,60.00245
9.891666,39.13213,7.620776,40.00180,59.99653
10.15833,39.66328,7.615250,39.99282,59.99334
10.42500,40.19581,7.610300,40.00562,60.00312
10.69166,40.73088,7.604999,39.99868,60.00120
10.95833,41.26409,7.600590,40.00790,60.00559
11.22500,41.79540,7.596416,39.99900,60.00918
11.49167,42.32797,7.591836,40.00211,59.99640
11.75833,42.86182,7.587626,40.00530,59.99975
12.02500,43.39342,7.583900,40.00524,60.00246
12.29167,43.92908,7.579941,40.00626,59.99802
12.55834,44.45766,7.576300,40.01268,60.00774
12.82500,44.99302,7.572620,40.00364,59.98762
13.09166,45.52217,7.569416,40.00648,59.99285
13.35834,46.05539,7.565780,40.00146,60.00755
13.62500,46.58566,7.563056,40.00414,60.00096
13.89166,47.11597,7.560148,40.00075,59.99700
14.15834,47.64870,7.557418,39.99346,59.98837
14.42500,48.18398,7.554563,39.99200,59.99887
14.69167,48.71609,7.551880,39.99857,60.00281
14.95833,49.24900,7.549018,40.00014,60.00496
15.22500,49.78333,7.546371,40.00358,59.99142
15.49167,50.31320,7.543819,40.00160,60.00792
15.75833,50.84042,7.541379,39.99719,60.00498
16.02500,51.37387,7.539003,39.99468,60.00261
16.29166,51.90854,7.536869,40.00029,59.99683
16.55833,52.44076,7.534490,39.99769,59.98762
16.82500,52.97562,7.532220,40.00088,59.99814
17.09167,53.51098,7.530009,40.00580,60.01067
17.35834,54.04155,7.528174,39.99828,59.99784
17.62500,54.57739,7.525840,40.01078,60.00628
17.89166,55.11592,7.524132,40.00722,60.01161
18.15833,55.65496,7.522046,40.00672,59.98250
18.42500,56.19134,7.520034,40.00913,60.00925
18.69167,56.72621,7.518600,40.00347,60.00624
18.95834,57.25984,7.516724,40.01166,60.00515
19.22500,57.79169,7.515032,40.00531,60.00263
19.49167,58.32531,7.512959,40.00035,60.00141
19.75833,58.85500,7.510861,39.99952,60.00650
20.02500,59.38600,7.509292,40.00764,60.02035
20.29166,59.92176,7.507876,39.99936,59.99826
20.55833,60.45508,7.506288,40.00440,60.00571
20.82500,60.99026,7.504534,39.99058,60.00020
21.09167,61.52276,7.503244,40.00667,60.00614
21.35834,62.05359,7.501444,39.99856,59.99732
21.62500,62.58594,7.499782,39.99826,59.99632
21.89166,63.11948,7.498108,40.00000,59.99814
22.15833,63.65051,7.496665,39.99488,59.99978
22.42500,64.17944,7.495318,39.99551,60.00866
22.69167,64.71226,7.494016,39.98880,60.00457
22.95834,65.25224,7.492831,39.99731,59.99539
23.22500,65.78457,7.491338,40.00018,59.98989
23.49167,66.31519,7.489649,39.99170,60.00078
23.75833,66.84718,7.488226,39.99902,59.99280
24.02500,67.38113,7.487338,39.99027,60.00007
24.29166,67.91637,7.485736,39.99700,60.00638
24.55833,68.44662,7.484741,40.00030,60.00606
24.82500,68.97724,7.482950,39.99165,60.01149
25.09167,69.51366,7.481913,40.00229,60.00942
25.35834,70.04859,7.480984,39.98794,60.00999
25.62500,70.58410,7.479603,39.99574,59.99143
25.89166,71.11728,7.478461,39.99387,59.99850
26.15833,71.65142,7.477290,40.00618,60.00870
26.42500,72.18266,7.475952,40.01086,60.00278
26.69167,72.71774,7.474926,40.01030,60.00287
26.95834,73.25130,7.473848,40.02004,59.98921
27.22500,73.78462,7.472695,40.00236,59.99700
27.49166,74.31558,7.471722,40.00007,59.99203
27.75834,74.84968,7.470343,39.99561,59.99452
28.02500,75.38069,7.469575,40.00307,60.00688
28.29166,75.91692,7.468432,40.00352,59.98809
28.55833,76.44744,7.467134,39.99694,59.99224
28.82500,76.98562,7.466697,40.01082,60.00199
29.09167,77.52151,7.465772,39.99997,59.99038
29.35834,78.05425,7.463919,40.00027,60.00499
29.62500,78.58494,7.462676,39.99933,59.99298
29.89166,79.11421,7.462168,39.99106,60.00190
30.15833,79.64831,7.461170,39.99561,59.97940
30.42500,80.18310,7.460064,40.00069,59.99968
30.69167,80.71597,7.458830,39.99512,59.99911
30.95834,81.24993,7.458274,40.00204,59.99195
31.22500,81.78247,7.457122,40.00615,59.99551
31.49166,82.30976,7.456121,39.99176,60.00710
31.75834,82.84369,7.454965,39.99740,60.00039
32.02500,83.37340,7.453916,39.99782,59.99220
32.29167,83.90931,7.453674,39.99750,59.99898
32.55834,84.44082,7.452000,40.00044,60.01713
32.82500,84.97309,7.450891,39.99585,60.00976
33.09167,85.50591,7.449951,40.00208,60.01368
33.35834,86.04191,7.448890,40.00424,59.99822
33.62500,86.57624,7.448196,40.00765,59.99774
33.89166,87.11149,7.446879,39.99769,59.99126
34.15833,87.64424,7.445544,39.99956,60.00344
34.42500,88.17422,7.445015,40.00875,59.99302
34.69166,88.70914,7.443713,40.00174,59.99825
34.95833,89.24151,7.443348,40.00557,60.00014
35.22500,89.77344,7.441738,40.00514,60.00426
35.49166,90.30830,7.440405,40.00660,59.99752
35.75834,90.83900,7.439493,40.01140,60.01880
36.02500,91.37444,7.438262,39.99555,59.99129
36.29167,91.91074,7.437018,39.99041,59.99605
36.55834,92.44848,7.436000,40.00065,60.01672
36.82500,92.98413,7.435430,39.99027,59.99734
37.09167,93.51639,7.434100,40.00280,60.00220
37.35834,94.05142,7.432419,39.98866,60.00425
37.62500,94.58470,7.431460,39.98902,60.01426
37.89166,95.11766,7.430234,39.99208,59.98900
38.15833,95.64866,7.429270,39.99453,59.98788
38.42500,96.18209,7.428293,39.99594,59.99534
38.69166,96.71861,7.428064,39.99025,59.99640
38.95833,97.25142,7.425611,40.00530,59.99928
39.22500,97.78249,7.424537,39.99247,60.00655
39.49166,98.31509,7.423018,39.99410,60.00760
39.75834,98.84576,7.421924,40.00557,59.99582
40.02500,99.37455,7.420152,40.00253,59.99370
40.29167,99.91105,7.419661,40.00294,59.99980
40.55834,100.4412,7.418432,40.00440,60.00352
40.82500,100.9717,7.416416,39.99336,60.00535
41.09167,101.5046,7.415500,39.99791,60.00180
41.35834,102.0408,7.415180,40.00612,59.99252
41.62500,102.5731,7.412896,40.00003,60.00506
41.89166,103.1065,7.412106,39.99360,60.00202
42.15833,103.6398,7.410560,40.00932,59.99707
42.42500,104.1680,7.408332,39.99384,60.00894
42.69166,104.7072,7.407006,40.00296,59.99350
42.95833,105.2398,7.406326,39.99803,59.99801
43.22500,105.7695,7.404915,39.99774,59.99657
43.49166,106.3012,7.402405,39.99132,60.00239
43.75834,106.8382,7.400498,39.98775,60.00170
44.02500,107.3751,7.399490,39.98938,60.00094
44.29167,107.9079,7.397794,39.98720,59.99390
44.55834,108.4475,7.396582,39.98738,59.99443
44.82500,108.9783,7.394841,40.00214,59.98676
45.09167,109.5124,7.392526,40.00340,59.99410
45.35834,110.0446,7.391129,39.99416,59.98194
45.62500,110.5761,7.389392,39.99341,59.98468
45.89166,111.1112,7.387562,40.00761,60.00100
46.15833,111.6416,7.386134,39.99664,59.99658
46.42500,112.1745,7.384326,40.00724,60.01518
46.69166,112.7115,7.382453,40.00713,60.00332
46.95833,113.2458,7.380670,40.00932,60.00743
47.22500,113.7799,7.379020,40.01380,60.00866
47.49166,114.3163,7.377050,40.00735,60.00857
47.75834,114.8454,7.374374,40.00947,59.99798
48.02500,115.3768,7.373837,39.99619,60.01421
48.29167,115.9059,7.371194,40.01306,59.99412
48.55834,116.4358,7.369950,40.01313,59.99300
48.82500,116.9614,7.367582,39.99644,60.00039
49.09167,117.4979,7.365921,40.01145,59.98307
49.35834,118.0304,7.363629,40.00756,59.99700
49.62500,118.5709,7.361592,40.01180,60.00740
49.89166,119.1066,7.359512,40.01326,59.99062
50.15833,119.6440,7.357962,40.00587,60.00382
50.42500,120.1753,7.355638,40.00350,59.99646
50.69166,120.7110,7.352972,39.99274,60.00484
50.95833,121.2420,7.351653,39.99010,59.98891
51.22500,121.7764,7.349676,39.99412,60.00004
51.49166,122.3091,7.347155,39.99536,60.00907
51.75834,122.8420,7.344843,39.99224,60.00663
52.02500,123.3707,7.342860,40.00102,60.00348
52.29167,123.9052,7.340024,39.99134,60.00398
52.55834,124.4386,7.338170,39.98655,59.99172
52.82500,124.9761,7.335508,39.98916,59.99730
53.09168,125.5107,7.333610,39.99433,59.99726
53.35832,126.0445,7.331641,39.99480,60.00018
53.62500,126.5643,7.328574,40.00812,59.99392
53.89168,127.1028,7.326316,39.99500,59.99729
54.15832,127.6389,7.323614,39.99984,60.00502
54.42500,128.1766,7.320849,40.00720,60.00588
54.69166,128.7096,7.318631,39.99986,60.00230
54.95832,129.2460,7.315813,39.99970,60.01191
55.22500,129.7774,7.313024,40.01194,59.99172
55.49166,130.3130,7.310884,40.00745,60.01275
55.75834,130.8470,7.308257,40.00989,60.00108
56.02500,131.3752,7.305362,40.00144,60.01402
56.29168,131.9084,7.302715,39.99933,59.99200
56.55834,132.4410,7.300218,40.00535,59.99467
56.82500,132.9721,7.297348,40.01000,59.99700
57.09168,133.5088,7.294324,40.01018,59.99848
57.35832,134.0334,7.291692,40.00168,59.98874
57.62500,134.5660,7.289048,40.00271,59.99718
57.89168,135.0997,7.285706,40.00874,59.99705
58.15832,135.6350,7.283631,39.98131,59.99828
58.42500,136.1753,7.280465,39.98605,60.00103
58.69166,136.7134,7.277905,39.99500,59.99866
58.95832,137.2442,7.274621,39.99176,59.99507
59.22500,137.7762,7.271455,39.99528,59.99175
59.49166,138.3095,7.268657,39.99241,59.99954
59.75834,138.8360,7.265799,39.98652,60.00158
60.02500,139.3668,7.262930,39.99161,59.99384
60.29168,139.8998,7.260550,39.99994,59.99574
60.55834,140.4371,7.256650,39.99486,59.99636
60.82500,140.9702,7.253519,40.00109,59.99428
61.09168,141.4988,7.250503,40.00425,59.99962
61.35832,142.0351,7.247595,40.00284,60.01274
61.62500,142.5712,7.244885,39.99758,59.99994
61.89168,143.1011,7.241329,40.00998,59.99620
62.15832,143.6337,7.237995,39.99408,60.00574
62.42500,144.1702,7.235058,40.01006,59.99944
62.69166,144.6971,7.232169,39.99672,60.00289
62.95832,145.2350,7.228550,40.01035,60.00620
63.22500,145.7706,7.224805,40.01284,60.00210
63.49166,146.3061,7.222418,40.00625,59.99734
63.75834,146.8405,7.219300,39.98655,59.99930
64.02500,147.3718,7.215760,39.99041,59.99850
64.29166,147.9061,7.213012,40.00715,59.99874
64.55834,148.4417,7.209550,39.99768,60.01132
64.82500,148.9725,7.205190,40.00141,59.99542
65.09168,149.5099,7.202887,40.00078,59.99932
65.35832,150.0429,7.199268,39.99328,59.99934
65.62500,150.5769,7.195765,39.99348,60.00402
65.89168,151.1088,7.192944,39.99243,59.99770
66.15832,151.6461,7.189942,40.00464,60.00082
66.42500,152.1795,7.187439,39.99522,60.00415
66.69166,152.7019,7.182728,39.99578,59.98700
66.95834,153.2383,7.179601,39.98652,59.99609
67.22500,153.7721,7.176110,39.99700,60.00550
67.49168,154.3052,7.173212,39.99496,60.00024
67.75832,154.8348,7.169324,40.00467,59.99951
68.02500,155.3638,7.166350,39.99979,60.01579
68.29166,155.8970,7.162421,40.00768,60.00406
68.55834,156.4353,7.159194,39.99794,59.99950
68.82500,156.9712,7.155250,39.99902,59.99376
69.09168,157.4974,7.152256,40.01400,60.00901
69.35832,158.0350,7.148956,40.00144,59.99897
69.62500,158.5672,7.145397,40.00410,60.00060
69.89168,159.1004,7.142187,40.00290,60.00737
70.15832,159.6321,7.138510,40.00977,60.01486
70.42500,160.1679,7.135361,40.00292,59.99512
70.69166,160.7019,7.131387,40.00912,59.99418
70.95834,161.2359,7.127970,39.99426,60.00731
71.22500,161.7709,7.124781,39.99518,60.00296
71.49168,162.3019,7.120816,39.99732,60.00566
71.75832,162.8353,7.117589,40.00559,59.99484
72.02500,163.3689,7.114168,40.00370,59.98987
72.29166,163.9046,7.110719,39.99528,60.00748
72.55834,164.4396,7.107434,39.99321,59.99012
72.82500,164.9692,7.103657,40.00484,60.00512
73.09168,165.5036,7.099907,39.99347,59.99902
73.35832,166.0363,7.096003,39.99410,59.99968
73.62500,166.5673,7.092762,39.99386,59.99640
73.89168,167.1039,7.089389,39.99064,59.99324
74.15832,167.6396,7.085741,39.99638,60.01318
74.42500,168.1691,7.082324,39.99766,59.98246
74.69166,168.7036,7.079062,40.00866,59.99793
74.95834,169.2355,7.074820,39.99614,59.96365
75.22500,169.7694,7.071384,39.99859,60.00506
75.49168,170.3000,7.067444,40.00410,59.99632
75.75832,170.8367,7.064441,39.99734,59.98890
76.02500,171.3693,7.060958,40.00150,60.00569
76.29166,171.8994,7.057538,39.99558,59.99653
76.55834,172.4328,7.053769,39.99348,59.99304
76.82500,172.9663,7.049859,40.00194,60.00176
77.09168,173.4977,7.046472,40.00071,59.99418
77.35832,174.0335,7.044015,39.99966,60.01290
77.62500,174.5676,7.039544,40.01147,59.99561
77.89168,175.0999,7.035743,40.01037,60.00693
78.15832,175.6362,7.032355,39.99862,59.99460
78.42500,176.1657,7.028764,40.00453,59.99910
78.69166,176.6980,7.025080,40.00418,60.01400
78.95834,177.2299,7.021431,39.99910,59.99160
79.22500,177.7645,7.017845,40.00946,60.00550
79.49168,178.3016,7.014735,39.99990,59.99594
79.75832,178.8326,7.010094,40.00102,60.00908
80.02500,179.3615,7.006568,39.99848,59.99590
80.29166,179.8969,7.003037,39.99075,59.99776
80.55834,180.4350,6.999410,39.99726,59.98693
80.82500,180.9669,6.995902,39.99316,59.99683
81.09168,181.4999,6.992197,39.99554,59.98522
81.35832,182.0340,6.988580,39.98672,59.99680
81.62500,182.5694,6.986118,39.99265,59.99678
81.89168,183.1020,6.980456,39.99101,59.99018
82.15832,183.6324,6.977624,39.99817,59.99880
82.42500,184.1643,6.973545,40.00145,60.01476
82.69166,184.6991,6.970734,39.99464,60.01774
82.95834,185.2360,6.966940,40.00735,60.00304
83.22500,185.7664,6.963110,39.99524,60.01892
83.49168,186.3041,6.959546,40.00800,60.00432
83.75832,186.8312,6.955484,39.99864,60.01102
84.02500,187.3638,6.951766,40.00387,60.00210
84.29166,187.8932,6.948391,39.99674,59.97994
84.55834,188.4280,6.944024,40.00945,60.00318
84.82500,188.9587,6.940259,40.00475,60.00598
85.09168,189.4937,6.934926,40.01162,59.99562
85.35832,190.0236,6.932980,40.00050,60.00443
85.62500,190.5616,6.929172,40.01459,60.00146
85.89168,191.0982,6.925412,40.00074,60.00220
86.15832,191.6296,6.921538,40.00780,60.00382
86.42500,192.1698,6.917305,40.00687,59.99172
86.69166,192.6964,6.913812,40.01068,59.98965
86.95834,193.2298,6.910224,39.99166,60.00206
87.22500,193.7634,6.906176,39.99230,59.99747
87.49168,194.3006,6.902266,39.98737,59.99261
87.75832,194.8282,6.898701,39.99422,60.00559
88.02500,195.3603,6.894828,39.99775,59.99854
88.29166,195.8923,6.890662,39.98310,59.99887
88.55834,196.4288,6.886801,40.00680,59.99731
88.82500,196.9640,6.883047,39.99864,60.00698
89.09168,197.4957,6.878980,39.98687,59.99548
89.35832,198.0308,6.875132,39.98225,59.99918
89.62500,198.5624,6.871782,40.00104,59.99724
89.89168,199.1016,6.867555,39.99988,59.99314
90.15832,199.6349,6.864216,40.00247,60.00878
90.42500,200.1661,6.859368,39.99890,60.01608
90.69166,200.6963,6.856036,40.00254,60.00182
90.95834,201.2346,6.852240,40.00794,59.98886
91.22500,201.7652,6.847735,40.00338,60.00812
91.49168,202.2989,6.844286,40.01035,60.00544
91.75832,202.8293,6.840007,39.99795,60.00154
92.02500,203.3662,6.836280,40.00211,59.99722
92.29166,203.8976,6.832576,40.00862,59.99804
92.55834,204.4353,6.828534,40.00470,59.98979
92.82500,204.9678,6.824525,39.99790,59.98504
93.09168,205.4970,6.820416,40.00141,59.99968
93.35832,206.0321,6.816900,39.99914,59.99672
93.62500,206.5645,6.812350,39.99820,60.00324
93.89168,207.0959,6.808793,39.99910,59.99268
94.15832,207.6289,6.805001,40.00158,59.99426
94.42500,208.1614,6.800738,39.98506,59.99761
94.69166,208.6957,6.796714,39.99160,59.99464
94.95834,209.2261,6.792501,39.98626,59.98805
95.22500,209.7604,6.788845,39.98770,59.99896
95.49168,210.2918,6.784937,39.99097,60.00552
95.75832,210.8242,6.781228,39.99298,59.98813
96.02500,211.3552,6.776705,39.98460,60.00850
96.29166,211.8911,6.772788,39.99255,59.99536
96.55834,212.4288,6.768936,39.99656,59.99594
96.82500,212.9627,6.765022,39.99665,60.00377
97.09168,213.4939,6.760931,39.99838,59.99135
97.35832,214.0296,6.756821,39.99506,59.99488
97.62500,214.5601,6.752759,39.99686,59.99363
97.89168,215.0911,6.748956,39.99669,60.00026
98.15832,215.6258,6.744530,40.01434,59.99445
98.42500,216.1626,6.741368,40.00290,60.00611
98.69166,216.6939,6.736810,39.99744,60.00660
98.95834,217.2288,6.732935,40.00351,60.00196
99.22500,217.7628,6.728814,39.99892,59.99816
99.49168,218.2940,6.724951,40.00605,59.98943
99.75832,218.8347,6.720910,40.00078,59.99168
100.0250,219.3635,6.716998,40.01358,59.99150
100.2917,219.8964,6.712743,40.00804,60.00246
100.5583,220.4268,6.709103,39.99522,60.00984
100.8250,220.9627,6.705051,39.99666,59.99580
101.0917,221.4966,6.700996,40.01320,59.99746
101.3583,222.0313,6.697092,40.00731,59.99750
101.6250,222.5630,6.693394,40.00138,59.99724
101.8917,223.1000,6.689297,39.99391,59.98391
102.1583,223.6284,6.685106,39.99585,60.00774
102.4250,224.1618,6.680890,40.00191,59.99752
102.6917,224.6930,6.677554,39.99825,59.99250
102.9583,225.2260,6.673705,39.98715,59.99465
103.2250,225.7578,6.669224,39.99731,59.99484
103.4917,226.2889,6.665976,39.99131,60.00377
103.7583,226.8284,6.662753,39.99280,59.99146
104.0250,227.3640,6.658507,39.99553,60.00243
104.2917,227.8870,6.653488,40.00170,59.99440
104.5583,228.4214,6.650030,39.99340,59.99868
104.8250,228.9587,6.646636,40.00217,60.00382
105.0916,229.4892,6.642374,39.99292,60.00028
105.3583,230.0201,6.638347,40.00623,59.99496
105.6250,230.5407,6.635210,40.01414,60.01045
105.8917,231.0666,6.630712,40.00361,60.00664
106.1584,231.6099,6.626992,39.99980,60.00534
106.4250,232.1394,6.623364,40.00260,59.99284
106.6916,232.7400,6.619770,40.00029,59.98943
106.9584,233.3161,6.617671,40.00376,60.00184
107.2250,233.8070,6.612432,39.99949,59.99906
107.4917,234.2995,6.608984,40.01668,59.99486
107.7583,234.7439,6.604601,40.00344,60.00613
108.0250,235.3425,6.601834,40.01451,60.00912
108.2916,235.8954,6.597081,39.99275,60.00531
108.5584,236.4164,6.594391,40.00342,60.00876
108.8250,236.9513,6.590838,40.00149,59.99374
109.0916,237.4906,6.587500,40.00494,60.00660
109.3583,238.0294,6.583776,40.00490,60.01130
109.6250,238.5648,6.580406,40.00002,60.00336
109.8917,239.0994,6.576904,40.00305,59.99294
110.1584,239.6316,6.572962,39.99611,59.99948
110.4250,240.1627,6.569559,39.99290,59.99695
110.6916,240.6958,6.566899,39.99719,59.99337
110.9584,241.2256,6.562714,40.00124,59.99936
111.2250,241.7600,6.559353,39.99640,60.00140
111.4917,242.2936,6.555956,39.99772,59.98998
111.7583,242.8250,6.552718,39.99674,59.99774
112.0250,243.3565,6.549213,39.99065,59.99709
112.2916,243.8876,6.546555,39.99584,59.99418
112.5584,244.4218,6.542113,40.00256,59.99910
112.8250,244.9492,6.541030,40.00304,59.99283
113.0916,245.4920,6.536435,39.99450,59.98702
113.3583,246.0270,6.533838,39.98728,60.00865
113.6250,246.5591,6.531410,39.99933,59.99897
113.8917,247.0889,6.528042,40.00010,59.98907
114.1584,247.6202,6.524868,40.00447,60.00415
114.4250,248.1608,6.522540,40.01154,60.01426
114.6916,248.6911,6.518842,40.01056,60.01287
114.9584,249.2244,6.515289,40.00524,60.00900
115.2250,249.7622,6.514849,40.01532,60.00700
115.4917,250.2904,6.509686,39.99612,59.99610
115.7583,250.8196,6.509841,40.00290,59.99380
116.0250,251.3487,6.505494,40.01109,60.00237
116.2916,251.8811,6.502099,40.00530,59.99722
116.5584,252.4259,6.499519,39.99593,60.00043
116.8250,252.9408,6.497078,40.00864,59.99272
117.0916,253.5640,6.495095,40.00432,59.98735
117.3583,253.9972,6.489581,39.99860,59.99751
117.6250,254.5183,6.488086,40.00412,59.99039
117.8917,255.0756,6.485038,39.99740,60.00769
118.1584,255.6267,6.482627,39.98558,59.99176
118.4250,256.1584,6.478584,39.99316,59.99548
118.6916,256.6996,6.477560,39.99036,59.99258
118.9584,257.2433,6.475998,39.99792,59.99449
119.2250,257.7778,6.472870,40.00870,60.01378
119.4917,258.3062,6.471472,39.99642,59.99783
119.7583,258.8358,6.468521,39.99388,59.99578
120.0250,259.3606,6.465662,40.00017,59.98922
120.2916,259.8932,6.464258,39.99914,59.99384
120.5584,260.4311,6.461791,39.99741,59.99675
120.8250,260.9588,6.458082,40.00594,59.99899
121.0916,261.4920,6.456324,39.99740,59.99634
121.3583,262.0238,6.455801,39.99422,60.01543
121.6250,262.5565,6.452569,39.99708,60.00320
121.8917,263.0968,6.450603,39.99442,60.00432
122.1584,263.6242,6.448703,39.99195,60.00240
122.4250,264.1512,6.445740,40.00400,60.00590
122.6916,264.6828,6.444590,40.00146,60.00400
122.9584,265.2170,6.442370,40.01172,59.99332
123.2250,265.7478,6.440161,40.00661,60.00550
123.4917,266.3759,6.439830,40.00559,59.99454
123.7583,266.8672,6.438622,39.99452,59.99272
124.0250,267.3708,6.437027,40.00298,59.98910
124.2916,267.9034,6.434392,40.00659,60.00326
124.5584,268.4062,6.433393,40.00150,59.99615
124.8250,268.9350,6.431632,40.00324,60.00350
125.0916,269.4787,6.430571,39.99474,60.00050
125.3583,269.9941,6.427344,40.00535,59.99711
125.6250,270.5394,6.427135,40.00261,59.99792
125.8917,271.0898,6.425086,39.99980,59.99505
126.1584,271.6294,6.423006,40.00024,60.00756
126.4250,272.1660,6.421368,39.99083,59.99951
126.6916,272.6994,6.420218,39.99288,60.00570
126.9584,273.2340,6.419224,39.99020,59.99207
127.2250,273.7585,6.416162,39.98832,60.00626
127.4917,274.2861,6.415160,39.99152,60.00180
127.7583,274.8223,6.413913,39.99631,60.00570
128.0250,275.3594,6.412610,39.99492,59.99448
128.2917,275.8893,6.411943,39.99002,59.99390
128.5584,276.4275,6.409644,40.00824,60.00722
128.8250,276.9546,6.408856,39.99926,60.00449
129.0916,277.4882,6.406956,40.00064,59.99338
129.3584,278.0160,6.405816,39.99625,60.00448
129.6250,278.5462,6.404461,40.00464,60.00587
129.8916,279.0804,6.403210,40.00171,60.00209
130.1584,279.6105,6.401679,40.00608,60.00250
130.4250,280.1616,6.403089,40.00804,60.00460
130.6916,280.6845,6.400884,40.00666,60.00929
130.9583,281.2180,6.398770,40.01215,59.98907
131.2250,281.7422,6.396934,40.00094,60.00428
131.4917,282.2833,6.396797,40.01187,59.99682
131.7583,282.8168,6.395309,40.00266,60.00779
132.0250,283.3522,6.394164,40.00074,59.99479
132.2917,283.8858,6.393603,39.99898,60.00676
132.5584,284.3368,6.390820,40.00585,60.00515
132.8250,284.9090,6.389866,40.00360,60.00909
133.0916,285.4854,6.389868,40.00744,59.99254
133.3584,286.0295,6.387599,39.98412,59.98297
133.6250,286.5650,6.386934,39.99309,59.99350
133.8916,287.1033,6.386168,39.99613,60.00596
134.1584,287.6318,6.384274,39.98826,59.98777
134.4250,288.1622,6.383181,39.99835,60.00037
134.6916,288.6970,6.382840,39.99422,60.00621
134.9583,289.2290,6.382914,39.99438,60.00011
135.2250,289.7590,6.380418,39.99892,60.00056
135.4917,290.2878,6.379700,39.99885,59.99454
135.7583,290.8320,6.380520,39.99122,60.00271
136.0250,291.3608,6.377040,40.00683,59.99613
136.2917,291.9076,6.378254,39.99717,60.00364
136.5584,292.5008,6.377686,39.99942,59.99549
136.8250,292.9790,6.376050,40.00760,60.00006
137.0916,293.4845,6.376576,40.00750,60.00830
137.3584,294.0248,6.375092,40.00391,60.00180
137.6250,294.5502,6.375480,40.00563,60.00714
137.8916,295.0830,6.372889,40.00153,59.99868
138.1584,295.6018,6.370936,40.00141,60.00093
138.4250,296.1446,6.372710,39.99381,60.00011
138.6916,296.6709,6.369431,40.00078,59.99587
138.9583,297.2082,6.370820,40.00564,60.00354
139.2250,297.7455,6.369430,39.99637,59.99976
139.4917,298.2916,6.369470,39.99506,59.99363
139.7583,298.8170,6.367603,39.99704,59.99250
140.0250,299.3515,6.367714,39.99967,59.99934
140.2917,299.8833,6.365672,40.00189,59.99215
140.5584,300.4230,6.365095,39.99910,59.99570
140.8250,300.9499,6.363945,39.99600,59.99756
141.0916,301.4932,6.364598,40.00028,60.00062
141.3584,302.0216,6.362840,39.99077,60.00742
141.6250,302.5516,6.361900,39.99671,59.99650
141.8916,303.1413,6.362400,39.99546,60.00218
142.1584,303.6528,6.361646,39.99478,59.99741
142.4250,304.1133,6.359954,39.99128,60.00497
142.6916,304.6273,6.359082,40.00045,59.99730
142.9583,305.1971,6.358242,39.99895,59.99230
143.2250,305.7552,6.358986,40.00470,59.99584
143.4917,306.2958,6.356824,40.00569,59.99738
143.7583,306.8265,6.355992,40.00154,60.01090
144.0250,307.3766,6.355676,40.01053,60.00732
144.2917,307.8972,6.353778,40.00522,60.00895
144.5584,308.4222,6.353924,40.00708,59.99798
144.8250,308.9554,6.353266,40.01249,59.99116
145.0916,309.4863,6.350779,40.00955,59.99859
145.3584,310.0343,6.353596,40.00128,60.01046
145.6250,310.5504,6.350689,40.00548,60.00238
145.8916,311.0851,6.350271,40.00447,59.99566
146.1584,311.6213,6.350662,40.00094,60.00738
146.4250,312.1587,6.349314,40.00314,59.99259
146.6916,312.6846,6.347887,40.00597,59.98834
146.9583,313.2170,6.347310,40.00660,60.00601
147.2250,313.7562,6.347759,40.00133,60.00335
147.4917,314.2906,6.346560,39.99940,59.99557
147.7583,314.8248,6.346562,40.01511,59.99607
148.0250,315.3517,6.345520,39.99425,60.00985
148.2917,315.8861,6.345488,40.00150,60.00615
148.5584,316.4175,6.344106,39.99029,59.98193
148.8250,316.9546,6.344020,39.99385,59.99991
149.0916,317.5040,6.345752,39.99441,59.99956
149.3584,318.0208,6.342020,39.98820,59.98951
149.6250,318.5442,6.341032,39.99042,60.00193
149.8916,319.0771,6.340105,39.99112,59.99555
150.1584,319.6127,6.340434,39.98991,60.00186
150.4250,320.1592,6.339280,40.00248,60.00154
150.6916,320.6884,6.338047,40.00060,59.99410
150.9583,321.2256,6.336496,39.99652,59.99359
151.2250,321.7500,6.337445,40.00769,60.00982
151.4917,322.2803,6.336318,40.00203,60.00535
151.7583,322.8182,6.335812,40.00942,60.00324
152.0250,323.3530,6.334644,40.00739,60.00052
152.2917,323.8864,6.334215,39.99287,60.00520
152.5584,324.4258,6.333803,40.00193,59.99404
152.8250,324.9660,6.333876,40.00964,60.01465
153.0916,325.4918,6.333166,40.00460,59.99440
153.3584,326.0156,6.331895,40.00322,59.99022
153.6250,326.5490,6.330396,40.00264,60.00216
153.8916,327.0871,6.330676,40.00215,60.01076
154.1584,327.6155,6.329646,40.00449,59.99443
154.4250,328.1523,6.329224,40.00222,60.00541
154.6916,328.6918,6.327818,39.99420,60.00480
154.9583,329.2248,6.328384,39.99433,60.00586
155.2250,329.7515,6.327368,40.00052,59.99670
155.4917,330.2959,6.327265,39.99490,59.98557
155.7583,330.8214,6.326680,39.99164,59.99191
156.0250,331.3456,6.325888,39.98444,59.99882
156.2917,331.8782,6.323699,39.98765,60.00389
156.5584,332.4222,6.324530,39.99704,59.99359
156.8250,332.9563,6.322886,39.99216,59.99718
157.0916,333.4846,6.321864,39.99340,60.00894
157.3584,334.0158,6.321656,39.99816,59.99230
157.6250,334.5542,6.321000,39.99574,59.99830
157.8916,335.0960,6.320642,40.00774,60.00203
158.1584,335.6284,6.320205,40.00110,60.01474
158.4250,336.1488,6.318955,39.99694,60.01049
158.6916,336.6778,6.317789,40.00292,60.00000
158.9583,337.2163,6.317929,40.01228,59.99714
159.2250,337.7546,6.317212,40.01111,60.00436
159.4917,338.2838,6.316440,40.01950,60.01186
159.7583,338.8210,6.315210,40.00213,60.00373
160.0250,339.3627,6.316352,40.00288,60.00599
160.2917,339.8792,6.314100,40.00460,59.99776
160.5584,340.4176,6.312546,39.99969,60.00182
160.8250,340.9556,6.312900,40.00473,60.00137
161.0916,341.4811,6.310867,40.00776,60.00170
161.3584,342.0256,6.310965,39.99800,60.00362
161.6250,342.5515,6.310074,39.99540,60.00031
161.8916,343.0878,6.309292,39.99335,60.00293
162.1584,343.6165,6.309115,39.98950,60.00499
162.4250,344.1504,6.307851,39.99644,60.00396
162.6916,344.6828,6.307236,39.99600,60.00510
162.9583,345.2203,6.308170,39.99497,59.99209
163.2250,345.7550,6.305996,40.00000,59.99145
163.4917,346.2884,6.305224,39.99458,59.99921
163.7583,346.8190,6.304092,39.99639,60.00094
164.0250,347.3552,6.303549,40.00006,59.99853
164.2917,347.8955,6.302818,39.99672,60.00058
164.5584,348.4248,6.301788,39.99738,59.99248
164.8250,348.9526,6.301378,39.99585,60.00854
165.0916,349.4820,6.299900,40.01111,60.00059
165.3584,350.0232,6.299360,40.01291,59.99986
165.6250,350.5566,6.297784,40.00714,60.00425
165.8916,351.0822,6.296074,40.00478,59.99650
166.1584,351.6189,6.296192,40.00569,60.00694
166.4250,352.1552,6.297793,39.99962,60.01238
166.6916,352.6850,6.293387,40.00586,60.00472
166.9583,353.2190,6.292738,40.00683,60.01470
167.2250,353.7456,6.292868,40.00168,59.99916
167.4917,354.2799,6.290245,40.00182,59.99991
167.7583,354.8142,6.290466,39.99106,60.00652
168.0250,355.3513,6.289229,40.00092,59.99615
168.2917,355.8958,6.288729,39.99435,59.99706
168.5584,356.4389,6.286995,39.98536,60.00485
168.8250,356.9797,6.286080,39.99441,59.99988
169.0916,357.5040,6.284332,39.99223,59.98813
169.3584,358.0391,6.283536,39.99292,59.99861
169.6250,358.5747,6.282952,39.99468,59.99660
169.8916,359.0966,6.281128,39.99038,60.00416
170.1584,359.6245,6.280424,39.99156,60.00293
170.4250,360.1571,6.280344,39.99250,60.00513
170.6916,360.6896,6.277970,39.99260,59.99630
170.9583,361.2204,6.276745,39.99966,59.99013
171.2250,361.7532,6.275810,39.99526,60.00712
171.4917,362.2819,6.273985,40.00040,59.99414
171.7583,362.8153,6.273312,39.99374,60.01218
172.0250,363.3476,6.271638,39.99160,60.00066
172.2917,363.8858,6.271270,39.99748,60.01404
172.5584,364.4258,6.270550,40.01188,60.00381
172.8250,364.9526,6.268163,40.00403,60.00068
173.0916,365.4895,6.265952,39.99966,60.00676
173.3584,366.0135,6.264107,40.00384,60.00970
173.6250,366.5515,6.262692,40.00243,60.00187
173.8916,367.0803,6.261282,40.00947,60.00741
174.1584,367.6094,6.260518,40.01267,59.99699
174.4250,368.1531,6.258882,40.00942,60.01504
174.6916,368.6885,6.258059,40.01100,59.99922
174.9583,369.2200,6.257268,39.99952,60.00000
175.2250,369.7528,6.253169,40.00322,60.00126
175.4917,370.2851,6.252344,39.99838,59.99900
175.7583,370.8166,6.250836,40.00524,59.99713
176.0250,371.3580,6.248896,40.00120,60.01545
176.2917,371.8740,6.247751,39.99262,60.00156
176.5584,372.4120,6.245709,40.00044,59.99356
176.8250,372.9563,6.242762,39.99669,59.99844
177.0916,373.4964,6.242644,40.00234,60.00786
177.3584,374.0194,6.240364,39.98720,59.99967
177.6250,374.5546,6.237911,39.99000,59.99873
177.8916,375.0881,6.235974,39.99447,60.00044
178.1584,375.6140,6.234057,39.98770,59.99600
178.4250,376.1512,6.231006,39.99566,59.99644
178.6916,376.6813,6.228653,39.99880,60.00276
178.9583,377.2097,6.227253,39.99158,59.99028
179.2250,377.7504,6.225398,39.99392,60.00401
179.4917,378.2859,6.223069,39.98925,60.00664
179.7583,378.8283,6.221542,40.00760,60.00113
180.0250,379.3598,6.219278,39.99758,59.99266
180.2917,379.8904,6.216026,39.99729,60.00026
180.5584,380.4239,6.214063,40.00474,60.00401
180.8250,380.9478,6.210274,40.00503,60.00752
181.0916,381.4930,6.208052,40.00868,60.00383
181.3584,382.0164,6.205308,39.99365,60.00430
181.6250,382.5583,6.203084,40.00654,60.00162
181.8916,383.0825,6.198421,39.99981,60.00471
182.1584,383.6204,6.198801,39.99704,59.99629
182.4250,384.1562,6.194463,39.99675,59.99918
182.6916,384.6822,6.191776,40.00433,59.99429
182.9583,385.2195,6.187908,39.99508,59.99366
183.2250,385.7474,6.185661,40.00900,59.99043
183.4917,386.2843,6.182675,39.99220,59.99519
183.7583,386.8168,6.179098,39.99740,60.00713
184.0250,387.3590,6.177036,39.99283,59.99055
184.2917,387.8994,6.173540,39.99318,60.00074
184.5584,388.4333,6.170100,39.98695,59.99419
184.8250,388.9587,6.163300,39.99544,60.00211
185.0916,389.4977,6.161434,39.99751,59.99854
185.3584,390.0256,6.158822,39.99270,59.99844
185.6250,390.5572,6.153790,39.99884,60.00470
185.8916,391.0834,6.150363,39.99288,59.99662
186.1584,391.6181,6.145782,39.99288,59.99624
186.4250,392.1638,6.143540,40.00574,60.01118
186.6916,392.6814,6.138357,40.00025,60.00117
186.9583,393.2026,6.132385,40.00742,59.99882
187.2250,393.7482,6.129620,40.00491,59.99546
187.4917,394.2822,6.123348,40.00130,60.00965
187.7583,394.8134,6.118661,39.99273,59.99254
188.0250,395.3479,6.113811,40.00107,60.00866
188.2917,395.8879,6.108860,40.00974,59.99756
188.5584,396.4156,6.103310,40.00956,60.00594
188.8250,396.9448,6.095868,40.00044,59.99819
189.0916,397.4839,6.091276,40.00447,59.99256
189.3584,398.0186,6.087924,40.00080,60.00550
189.6250,398.5517,6.080460,40.00546,60.00449
189.8916,399.0835,6.073847,39.99558,59.99336
190.1584,399.6186,6.067951,40.00156,59.99223
190.4250,400.1566,6.062460,40.01047,59.99611
190.6916,400.6809,6.054734,39.98856,59.99750
190.9583,401.2154,6.048359,39.99212,59.99390
191.2250,401.7586,6.041196,39.99460,59.99400
191.4917,402.2883,6.035536,39.99634,60.00390
191.7583,402.8259,6.028243,39.99834,59.99511
192.0250,403.3594,6.021651,39.99784,59.99937
192.2917,403.8970,6.015715,39.99603,60.00160
192.5584,404.4145,6.005211,39.99963,59.99921
192.8250,404.9516,5.999021,39.99628,60.00307
193.0916,405.4883,5.991590,39.99731,59.99360
193.3584,406.0200,5.984400,40.00025,59.98933
193.6250,406.5482,5.976050,40.00026,59.99820
193.8916,407.0900,5.967354,40.00110,59.99198
194.1584,407.6259,5.961368,40.00860,60.00861
194.4250,408.1528,5.952020,40.00052,60.00434
194.6916,408.6803,5.944456,39.99915,60.00480
194.9583,409.2249,5.935201,40.00380,60.00606
195.2250,409.7586,5.928268,40.00202,60.00559
195.4917,410.2896,5.918662,40.00406,59.99568
195.7583,410.8213,5.911782,40.01103,60.00506
196.0250,411.3528,5.901739,39.99706,60.00488
196.2917,411.8882,5.893738,39.99810,60.00838
196.5584,412.4209,5.884166,39.99689,59.99816
196.8250,412.9669,5.876734,40.01340,60.01048
197.0916,413.4775,5.865731,39.99318,60.00282
197.3584,414.0182,5.858926,40.00206,60.00076
197.6250,414.5598,5.850132,40.00159,59.99639
197.8916,415.0988,5.844166,39.99751,59.98730
198.1584,415.6217,5.833434,40.00690,59.99566
198.4250,416.1662,5.826970,39.99941,59.99384
198.6916,416.6926,5.816382,39.99722,59.99980
198.9583,417.2206,5.808257,39.99991,59.99010
199.2250,417.7504,5.801572,39.98990,60.00416
199.4917,418.2831,5.791000,39.99308,60.00400
199.7583,418.8253,5.784405,39.99220,59.99672
200.0250,419.3596,5.776368,39.99848,59.99366
200.2917,419.8956,5.769335,39.99675,59.98797
200.5584,420.4298,5.761711,39.99666,60.00086
200.8250,420.9594,5.753291,40.00403,60.01116
201.0916,421.4934,5.745699,39.98988,60.00704
201.3584,422.0208,5.738446,39.99178,60.00063
201.6250,422.5458,5.731190,40.00186,59.99111
201.8916,423.0861,5.723100,40.00348,60.00430
202.1584,423.6206,5.718262,40.00703,60.00840
202.4250,424.1572,5.708740,40.00569,60.01124
202.6916,424.6893,5.703902,40.00105,60.00611
202.9583,425.2164,5.695286,40.00576,59.99580
203.2250,425.7664,5.689496,39.99268,59.99954
203.4917,426.3044,5.681530,40.00942,59.99156
203.7583,426.8246,5.676223,40.00259,59.99754
204.0250,427.3554,5.669771,40.00470,60.00338
204.2917,427.9024,5.663476,40.00590,59.99879
204.5584,428.4382,5.657613,40.00158,59.99895
204.8250,428.9643,5.651611,40.00758,59.99658
205.0916,429.4912,5.645624,39.99846,60.00502
205.3584,430.0248,5.639758,40.00398,60.01504
205.6250,430.5533,5.633178,39.99718,59.99541
205.8916,431.0840,5.625974,40.00312,60.00006
206.1584,431.5946,5.621198,40.00676,59.99195
206.4250,432.1350,5.614434,39.99246,60.00497
206.6917,432.7698,5.608930,39.98830,59.99336
206.9583,433.2824,5.603844,39.98828,59.99966
207.2250,433.6680,5.596646,39.99170,60.00089
207.4917,434.2898,5.591560,39.99289,59.99830
207.7583,434.8418,5.585375,39.99533,60.00872
208.0250,435.3572,5.579990,39.99425,59.99632
208.2917,435.8816,5.575024,39.99924,60.00212
208.5583,436.4096,5.568750,40.00183,60.00681
208.8250,436.9530,5.564558,40.00407,60.00449
209.0916,437.4874,5.557472,40.01070,60.00624
209.3584,438.0202,5.553684,39.99914,60.01352
209.6250,438.5565,5.547281,39.99885,59.99742
209.8916,439.0965,5.542472,40.00538,59.99001
210.1584,439.6282,5.538593,40.01543,60.00086
210.4250,440.1592,5.532798,40.00160,60.00390
210.6917,440.6918,5.528932,40.00424,60.00457
210.9583,441.2266,5.523730,40.00000,59.99793
211.2250,441.7600,5.520730,39.99922,59.99566
211.4917,442.2947,5.516226,40.00368,59.98964
211.7583,442.8270,5.511839,39.99288,59.99996
212.0250,443.3554,5.507268,40.00231,59.98984
212.2917,443.8920,5.502865,40.00488,59.99669
212.5583,444.4258,5.500437,39.99118,59.99250
212.8250,444.9500,5.494307,40.00738,59.99568
213.0916,445.4853,5.491802,39.99822,59.99178
213.3584,445.9396,5.485969,39.99334,60.00500
213.6250,446.5057,5.481386,40.00112,59.98818
213.8916,447.1403,5.479610,39.99611,59.99335
214.1584,447.6525,5.475719,39.99467,60.00752
214.4250,448.1774,5.471700,39.99532,59.99934
214.6917,448.6926,5.468242,39.99753,60.00226
214.9583,449.2235,5.464140,39.99263,60.00632
215.2250,449.7602,5.460192,40.00144,59.98979
215.4917,450.2904,5.456494,40.01079,60.00255
215.7583,450.8278,5.452951,40.01038,59.98797
216.0250,451.3560,5.449512,40.00350,59.99944
216.2917,451.8806,5.443623,40.00188,60.00210
216.5583,452.4154,5.440170,39.99656,60.00658
216.8250,452.9536,5.436120,40.00569,60.00426
217.0916,453.4882,5.431678,40.00510,60.00110
217.3584,454.0241,5.427407,40.00032,59.99950
217.6250,454.5628,5.422584,40.01456,59.99714
217.8916,455.1022,5.418025,39.99829,60.01196
218.1584,455.6389,5.414082,40.00820,60.00756
218.4250,456.1688,5.409021,40.00830,59.99851
218.6917,456.6964,5.402996,39.99600,60.01875
218.9583,457.2210,5.398533,40.00955,60.00528
219.2250,457.7572,5.394018,40.00774,59.99421
219.4917,458.2877,5.388326,40.00376,60.00268
219.7583,458.8284,5.382867,40.00895,60.01313
220.0250,459.3630,5.376618,39.99656,59.99684
220.2917,459.8954,5.371640,40.00348,60.00035
220.5583,460.4312,5.365904,39.99963,60.00092
220.8250,460.9582,5.359536,39.99693,60.00134
221.0916,461.4892,5.354126,39.99594,60.01253
221.3584,462.0256,5.347804,39.99153,60.00879
221.6250,462.5542,5.341326,39.99950,60.00420
221.8916,463.0912,5.334884,39.99932,59.99954
222.1584,463.6289,5.326199,39.99533,59.99570
222.4250,464.1628,5.319976,40.00150,60.00465
222.6917,464.6946,5.312812,39.99005,60.00826
222.9583,465.2270,5.305244,39.99176,60.00766
223.2250,465.7712,5.298078,39.99668,60.01137
223.4917,466.2994,5.288704,40.00784,60.00580
223.7583,466.8303,5.282064,40.00104,60.00144
224.0250,467.3669,5.271889,40.00074,59.99995
224.2917,467.8900,5.262820,40.00625,60.00815
224.5583,468.4344,5.254788,40.00610,59.99560
224.8250,468.9603,5.244380,40.00244,59.99978
225.0916,469.5039,5.235346,40.00112,59.99740
225.3584,470.0335,5.225240,39.99107,60.00710
225.6250,470.5642,5.216262,40.00612,59.99953
225.8916,471.0941,5.203407,40.00212,59.99372
226.1584,471.6304,5.192802,39.99918,60.00046
226.4250,472.1606,5.180660,39.99919,59.99990
226.6917,472.6984,5.169746,40.00142,60.00578
226.9583,473.2200,5.155898,39.99560,59.99686
227.2250,473.7594,5.144002,40.00088,60.00210
227.4917,474.2984,5.131222,40.00598,60.01128
227.7583,474.8280,5.117176,40.00538,59.99711
228.0250,475.3550,5.103230,40.00625,59.99539
228.2917,475.8940,5.089060,39.99124,59.99200
228.5583,476.4240,5.073278,39.99411,60.00896
228.8250,476.9630,5.058575,39.99452,59.98852
229.0916,477.4896,5.041572,39.99194,59.99218
229.3584,478.0380,5.024966,40.00130,60.00180
229.6250,478.5777,5.008968,39.99466,59.99911
229.8916,479.1100,4.991070,39.99530,60.00171
230.1584,479.6414,4.971833,40.00588,60.01024
230.4250,480.1772,4.953753,39.99454,59.99190
230.6917,480.7149,4.935184,39.99783,59.99012
230.9583,481.2432,4.914486,40.00829,59.99768
231.2250,481.7660,4.892042,39.99744,59.99263
231.4917,482.2944,4.870896,40.00304,60.00332
231.7583,482.8309,4.848637,40.00376,60.00144
232.0250,483.3628,4.825805,40.00497,60.01283
232.2917,483.8926,4.800962,40.00120,60.00148
232.5583,484.4324,4.778341,39.99355,60.00604
232.8250,484.9150,4.752946,40.00217,60.00038
233.0916,485.5331,4.727856,40.00840,59.99736
233.3584,485.9874,4.699812,40.00331,59.98940
233.6250,486.5574,4.673187,39.98956,60.00367
233.8916,487.1574,4.646934,39.99880,60.00544
234.1584,487.6560,4.618084,39.99760,59.99356
234.4250,488.1652,4.590318,40.00018,59.99307
234.6917,488.7028,4.562058,39.99426,59.99800
234.9583,489.2342,4.532944,39.99738,59.98647
235.2250,489.7631,4.500866,39.99830,59.98779
235.4917,490.3030,4.471426,39.99554,59.98496
235.7583,490.8253,4.438530,39.99566,60.00176
236.0250,491.3738,4.406870,39.99736,59.99536
236.2917,491.8718,4.375266,39.99915,60.00318
236.5583,492.3936,4.340994,40.00608,59.98900
236.8250,492.9628,4.309477,39.99508,60.00214
237.0916,493.5064,4.276936,40.00354,60.00512
237.3584,494.0420,4.243078,40.00292,59.99564
237.6250,494.5754,4.210004,39.99613,60.00244
237.8916,495.1109,4.176713,39.99688,60.00219
238.1584,495.6420,4.144825,40.00533,59.99804
238.4250,496.1890,4.110704,39.99994,60.00290
238.6917,496.7078,4.080956,40.01214,60.01316
238.9583,497.2284,4.046287,40.01270,60.00588
239.2250,497.7650,4.015488,40.00970,60.00246
239.4917,498.3126,3.985184,40.00754,59.99724
239.7583,498.8272,3.952667,40.00512,59.99836
240.0250,499.3617,3.923006,40.00188,60.00642
240.2917,499.8998,3.892569,40.00056,60.00902
240.5583,500.4319,3.864942,39.99759,59.99119
240.8250,500.9664,3.837853,40.00186,60.00120
241.0916,501.5045,3.810883,39.99910,59.99818
241.3584,502.0318,3.783638,39.99830,59.99520
241.6250,502.5688,3.759277,39.99013,59.99234
241.8916,503.1040,3.735459,39.99446,59.99756
242.1584,503.6346,3.712952,39.98576,59.99711
242.4250,504.1641,3.691251,39.99609,59.99842
242.6917,504.6988,3.669840,39.99290,60.01430
242.9583,505.2334,3.651012,40.00136,59.99756
243.2250,505.7594,3.630188,40.00080,59.99895
243.4917,506.2976,3.613496,39.99631,59.99912
243.7583,506.8384,3.596250,39.99625,59.99226
244.0250,507.3692,3.581637,39.99091,60.00868
244.2917,507.9013,3.565674,39.99704,59.99760
244.5583,508.4365,3.551697,39.99861,59.99844
244.8250,508.9696,3.538694,39.99838,60.00329
245.0916,509.5017,3.527472,39.98778,60.00350
245.3584,510.0396,3.515019,40.00328,60.01148
245.6250,510.5734,3.504020,40.00170,60.00320
245.8916,511.1065,3.493933,39.99641,59.99511
246.1584,511.6431,3.485024,40.00638,59.99988
246.4250,512.1702,3.474228,39.99743,60.00326
246.6917,512.6969,3.464011,40.01047,59.99452
246.9583,513.2329,3.456317,40.00656,60.00184
247.2250,513.7739,3.449576,40.00437,59.99676
247.4917,514.3028,3.440666,40.00270,60.00482
247.7583,514.8330,3.433794,40.00515,60.00176
248.0250,515.3700,3.428662,40.01147,60.00587
248.2917,515.9019,3.421072,39.99591,60.01118
248.5583,516.4371,3.416033,40.00450,60.00284
248.8250,516.9705,3.407888,40.00028,59.98536
249.0916,517.5034,3.404356,39.99726,59.99970
249.3584,518.0329,3.398060,40.00069,60.00056
249.6250,518.5681,3.393070,39.99899,60.00891
249.8916,519.1040,3.389234,39.99681,59.99368
250.1584,519.6366,3.382761,39.99811,60.00332
250.4250,520.1800,3.381900,39.99300,59.99280
250.6917,520.7086,3.374972,39.99419,60.00316
250.9583,521.2326,3.371168,39.99396,60.00232
251.2250,521.7642,3.366674,39.98830,59.99453
251.4917,522.3019,3.363667,39.99940,59.99766
251.7583,522.8370,3.360400,39.99750,60.00678
252.0250,523.3726,3.357187,39.99298,59.99129
252.2917,523.9035,3.351381,39.99660,60.00605
252.5583,524.4387,3.349486,39.99510,60.00107
252.8250,524.9711,3.345847,40.00780,60.00242
253.0916,525.5106,3.343434,39.99952,60.00928
253.3584,526.0390,3.339529,40.00159,60.00801
253.6250,526.5714,3.336668,40.00039,60.00245
253.8916,527.1074,3.333995,40.00238,60.00626
254.1584,527.6385,3.330250,39.99942,59.99884
254.4250,528.1690,3.328175,40.00600,60.00680
254.6917,528.7028,3.324253,40.00374,59.99348
254.9583,529.2363,3.321540,40.00668,60.00163
255.2250,529.7745,3.319832,40.00559,59.99679
255.4917,530.3072,3.317463,39.99318,60.00684
255.7583,530.8342,3.314068,40.00067,60.00000
256.0250,531.3686,3.310963,39.99937,59.99551
256.2916,531.8999,3.309312,39.99370,60.00383
256.5583,532.4361,3.307372,39.99954,60.00258
256.8250,532.9710,3.305008,40.00128,60.00049
257.0917,533.5026,3.300340,39.99998,59.99266
257.3584,534.0406,3.300022,39.99082,60.00148
257.6250,534.5768,3.298566,39.99231,60.00005
257.8916,535.1079,3.294072,39.99668,60.00556
258.1583,535.6428,3.292250,39.99504,59.99912
258.4250,536.1726,3.289302,39.99972,59.99651
258.6917,536.7055,3.286588,40.00356,59.99433
258.9584,537.2422,3.285982,39.98700,59.99465
259.2250,537.7663,3.282626,40.00125,59.99638
259.4917,538.3055,3.280656,39.98992,60.00068
259.7583,538.8453,3.279090,39.99945,59.99389
260.0250,539.3668,3.274977,39.99944,60.00030
260.2916,539.9016,3.273971,40.00550,60.00037
260.5583,540.4440,3.273193,40.01168,59.99238
260.8250,540.9726,3.269518,40.00248,59.99551
261.0917,541.5115,3.267201,40.00620,59.99612
261.3584,542.0382,3.265608,40.00364,60.00950
261.6250,542.5770,3.263023,40.00778,59.98728
261.8916,543.1044,3.260186,40.00699,59.99918
262.1583,543.6429,3.258801,40.01235,59.99291
262.4250,544.1736,3.256613,39.99897,59.99741
262.6917,544.7078,3.254738,40.00254,59.98354
262.9584,545.2412,3.252368,40.00719,59.99266
263.2250,545.7752,3.250338,39.99260,59.99390
263.4917,546.3078,3.248312,40.00206,60.00544
263.7583,546.8437,3.246392,39.99180,59.99222
264.0250,547.3744,3.243361,39.98472,59.99175
264.2916,547.9065,3.241608,40.00131,59.99319
264.5583,548.4470,3.240561,39.99167,59.98337
264.8250,548.9690,3.236666,39.99456,60.00122
265.0917,549.5076,3.235828,39.99489,60.00103
265.3584,550.0395,3.232342,39.98932,60.00449
265.6250,550.5768,3.231273,39.99790,59.99847
265.8916,551.0979,3.227754,39.99054,60.00086
266.1583,551.6458,3.228598,39.99556,59.98965
266.4250,552.1707,3.225770,40.00517,60.00063
266.6917,552.7050,3.221705,40.00033,60.00662
266.9584,553.2380,3.219437,39.99860,60.00434
267.2250,553.7750,3.217834,40.00344,60.00079
267.4917,554.3116,3.216081,39.99918,59.99702
267.7583,554.8445,3.213858,39.99820,59.99526
268.0250,555.3809,3.211552,39.99994,60.00740
268.2916,555.9132,3.209514,40.00513,59.99877
268.5583,556.4454,3.206775,40.00296,60.00076
268.8250,556.9804,3.205359,40.00137,60.00654
269.0917,557.5110,3.202880,40.00378,59.99298
269.3584,558.0422,3.201098,40.01642,60.00450
269.6250,558.5774,3.199088,40.00007,60.00812
269.8916,559.1121,3.196656,40.00384,60.00608
270.1583,559.6425,3.194355,40.00840,59.99899
270.4250,560.1824,3.191980,40.00326,59.98682
270.6917,560.7148,3.190263,40.00857,60.00064
270.9584,561.2463,3.188395,39.98982,59.99352
271.2250,561.7880,3.186080,40.00187,59.99961
271.4917,562.3175,3.183573,39.99883,59.99001
271.7583,562.8488,3.181522,40.00046,60.00257
272.0250,563.3771,3.179543,40.00426,59.99996
272.2916,563.9119,3.176306,39.99554,59.99507
272.5583,564.4434,3.174836,39.99828,59.99967
272.8250,564.9742,3.173284,39.99381,59.99765
273.0917,565.5088,3.170916,39.98440,60.00293
273.3584,566.0447,3.169390,39.99145,59.99858
273.6250,566.5832,3.166502,39.99620,59.99838
273.8916,567.1272,3.163342,39.98840,59.99098
274.1583,567.6638,3.161913,39.99450,60.01258
274.4250,568.2026,3.160535,39.99594,60.00070
274.6917,568.7278,3.157942,39.99556,59.98601
274.9584,569.2476,3.155936,39.99544,59.98848
275.2250,569.7764,3.153350,40.00481,60.00762
275.4917,570.3066,3.151900,40.00430,60.00388
275.7583,570.8292,3.149076,40.00356,60.00274
276.0250,571.3603,3.146380,40.00854,60.00351
276.2916,571.8924,3.143846,40.00552,60.00191
276.5583,572.4312,3.143026,40.00344,60.00857
276.8250,572.9724,3.140799,40.00820,60.00500
277.0917,573.5006,3.139154,39.99914,59.99340
277.3584,574.0358,3.138386,40.00003,59.99618
277.6250,574.5640,3.134539,39.99858,59.99840
277.8916,575.1072,3.132892,40.00922,60.00608
278.1583,575.6416,3.131780,40.00335,59.99085
278.4250,576.1769,3.128271,40.00963,59.98342
278.6917,576.7130,3.127477,39.99619,59.99275
278.9584,577.2461,3.124992,40.00585,60.00639
279.2250,577.7963,3.122740,39.99426,60.01235
279.4917,578.3370,3.119856,39.99175,59.99734
279.7583,578.8590,3.117854,39.99140,59.99531
280.0250,579.3750,3.115350,39.99620,59.99378
280.2916,579.9066,3.114808,39.99444,60.01019
280.5583,580.4403,3.113398,40.00296,59.99824
280.8250,580.9682,3.110786,39.99494,59.98766
281.0917,581.5061,3.108223,40.00344,59.98920
281.3584,582.0424,3.104871,39.99415,60.00515
281.6250,582.5793,3.105095,39.98591,59.99539
281.8916,583.1407,3.103613,40.00380,60.01486
282.1583,583.6817,3.100264,40.00676,60.00266
282.4250,584.2086,3.099465,40.00394,59.99690
282.6917,584.7418,3.098110,40.00470,60.01168
282.9584,585.2650,3.095198,39.99908,60.00462
283.2250,585.7922,3.093511,40.00212,60.00976
283.4917,586.3250,3.091269,40.00308,60.00416
283.7583,586.8506,3.086561,40.00508,60.00127
284.0250,587.3851,3.087536,40.00522,60.00437
284.2916,587.9141,3.085369,39.99948,60.00147
284.5583,588.4538,3.083769,39.99986,60.00732
284.8250,588.9812,3.081308,39.99329,59.99766
285.0917,589.5144,3.079891,39.99062,59.99778
285.3584,590.0508,3.078898,40.00106,59.99871
285.6250,590.5822,3.078814,39.99607,60.00058
285.8916,591.1148,3.075454,39.99092,60.00909
286.1583,591.6494,3.073642,40.00286,60.01104
286.4250,592.1914,3.073751,39.99236,59.99560
286.6917,592.7188,3.070144,39.99585,59.99336
286.9584,593.2574,3.067941,39.99610,59.99318
287.2250,593.7879,3.065406,40.00180,59.99938
287.4917,594.3222,3.065578,39.99170,60.00879
287.7583,594.8559,3.062134,40.00494,60.00722
288.0250,595.3926,3.061822,39.99552,59.99329
288.2916,595.9143,3.059525,39.98727,59.99444
288.5583,596.4582,3.058836,39.99390,59.99802
288.8250,596.9840,3.056358,39.99405,59.99654
289.0917,597.5188,3.056824,39.99952,59.99798
289.3584,598.0480,3.054172,40.00018,59.99258
289.6250,598.5800,3.051066,40.00760,59.99213
289.8916,599.1122,3.050204,40.00858,59.98657
289.9083,599.1457,3.049972,40.00386,60.00268